table_metadata:
  table: adlb
  label: Lab Analysis
  class: BASIC DATA STRUCTURE
  structure: One record per subject per parameter per analysis visit
  keys:
    - USUBJID PARAMN AVISITN ADT ATM SRCSEQ
  comment: 'MODIFY, OPTIONAL to fill: To add a link to a reference, e.g. ADRG, SAP
      or a program file update source_documents tab in adam_cst_metdata_xxxx.xls template.
      Syntax is explained in column header notes of the template.'

init:
  core_domains:
  - LB
  filter_domain: NA
  filter_global: NA
  filter_depend_cols: NA

column_metadata:
  - column: USUBJID
    source: core.USUBJID

  - column: VISITNUM2
    source: VISITNUM
