table_metadata:
  table: ADVS
  keys:
    - USUBJID PARAMN AVISITN ADT SRCSEQ


init:
  core_domains:
  - vs
  filter_domain: NA
  filter_global:
    - '!is.na(SEX)'
  filter_depend_cols:
    - ADSL.SEX

column_metadata:
  - column: STUDYID
    source: core.STUDYID

  - column: USUBJID
    source: core.USUBJID
