table_metadata:
  table: ADVS
  label: Vital Signs Analysis
  class: BASIC DATA STRUCTURE
  structure: One record per subject per parameter per analysis visit
  keys:
    - USUBJID PARAMN AVISITN ADT SRCSEQ
  comment: 'MODIFY, OPTIONAL to fill: To add a link to a reference, e.g. ADRG, SAP
    or a program file update source_documents tab in adam_cst_metdata_xxxx.xls template.
    Syntax is explained in column header notes of the template.'

init:
  core_domains:
  - VS
  filter_domain: NA
  filter_global:
    - '!is.na(SEX)'
  filter_depend_cols:
    - ADSL.SEX

column_metadata:
  - column: STUDYID
    source: core.STUDYID

  - column: USUBJID
    source: core.USUBJID
