table:
  name: ADLB

init:
  base_domains:
    - lb
  filter_domain:
    - lb: '!is.na(LBSTRESN)'
  filter_global:
    - '!is.na(SEX)'
    - 'LBSTRESU == "fL"'
  filter_depend_cols:
    - LBSTRESN
    - ADSL.SEX
    - LBSTRESU

column_action:
  USUBJID:

  STUDYID:

  LBSEQ:

  VISITNUM:

  LBSTRESN:

  LBSTRESU:
