id: ADLB
label: Laboratory Analysis Dataset
class: BASIC DATA STRUCTURE
structure: One record per subject per parameter per analysis visit
keys:
  - USUBJID
  - STUDYID
  - LBSEQ

population:
  base:
    - domain: LB
      depends:
        - NA
      filter: NA
  global:
    - filter: '!is.na(SEX)'
      depends:
        - ADSL.SEX

columns:
  - id: USUBJID

  - id: VISITNUM

  - id: ARM
    method: ADSL.PLANNED_ARM

  - id: RACE_COUNTRY
    method: ADSL.RACE_COUNTRY

  - id: AVAL
    method: ADLB.LBSTRESN

  - id: AVALC
    method: ADLB.LBSTRESC

  - id: STUDYID

  - id: LBSEQ

  - id: LBSTRESN

  - id: LBSTRESC

  - id: DOMAIN

  - id: LBTEST
    component:
      id: "lbtest_01.R"
    depends:
      - rows.NEW_AVAL_01

  - id: AVAL_GRP
    component:
      id: "aval_grp_01.R"
    depends:
      - rows.NEW_MICROCYTES

  - id: AVAL_GRP2
    component:
      id: "aval_grp_02.R"
    depends:
      - rows.NEW_MICROCYTES

rows:
  - id: NEW_MICROCYTES
    component:
      id: "new_lbtest_01.R"

  - id: NEW_MACROCYTES
    component:
      id: "new_lbtest_02.R"

  - id: NEW_MICROCYTES2
    component:
      id: "new_lbtest_03.R"
    depends:
      - rows.NEW_MICROCYTES

  - id: NEW_MACROCYTES2
    component:
      id: "new_lbtest_04.R"
    depends:
      - rows.NEW_MACROCYTES

  - id: NEW_MICROCYTES2_MACROCYTES2
    component:
      id: "new_lbtest_05.R"
    depends:
      - rows.NEW_MICROCYTES
      - rows.NEW_MACROCYTES

  - id: NEW_MICROCYTES34
    component:
      id: "new_lbtest_06.R"
    depends:
      - rows.NEW_MICROCYTES2

parameters:
  - id: NEW_AVAL_01
    component:
      id: "new_aval_01.R"

  - id: NEW_AVAL_02
    component:
      id: "new_aval_02.R"
    depends:
      - parameters.NEW_AVAL_01

  - id: NEW_AVAL_03
    component:
      id: "new_aval_03.R"

  - id: NEW_AVAL_04
    component:
      id: "new_aval_04.R"

  - id: NEW_VISITNUM_01
    component:
      id: "new_visitnum_01.R"

  - id: NEW_VISITNUM_02
    component:
      id: "new_visitnum_02.R"
    depends:
      - parameters.NEW_VISITNUM_01

  - id: NEW_PROTEIN
    component:
      id: "new_lbtest07.mustache"
      with:
        variable: Protein

  - id: NEW_SPECIFIC_GRAVITY
    component:
      id: "new_lbtest07.mustache"
      with:
        variable: Specific Gravity

  - id: NEW_PHOSPHATE
    component:
      id: "new_lbtest_09.R"
