id: ADAE
label: Adverse Events Analysis Dataset
class: OCCURRENCE DATA STRUCTURE
structure: One record per subject per adverse event
keys:
  - USUBJID
  - AESEQ

population:
  base:
    - domain: AE
      depends:
        - AEBODSYS
      filter: '!is.na(AEBODSYS)'
  global:
    - filter: '!is.na(SEX)'
      depends:
        - ADSL.SEX
    - filter: 'AETRTEM == "Y"'
      depends:
        - AETRTEM

columns:
  - id: STUDYID

  - id: USUBJID

  - id: AESEQ

  - id: AESOC

  - id: AEBODSYS

  - id: AGE
    method: ADSL.AGE

  - id: AETRTEM
    component:
      id: "supp_ae_01.R"
